Folder: Mission-Phase-Feature-Learning-for-eVTOL-Battery-Prognostics-with-ML

Note: README.md
# Mission-Phase Feature Learning for eVTOL Battery Prognostics (SOC, SOH, RUL) using ML algorithms
[![Data: CMU eVTOL (CC-BY-4.0)](https://img.shields.io/badge/Data-CMU%20eVTOL-6f42c1.svg)](https://kilthub.cmu.edu/articles/dataset/eVTOL_Battery_Dataset/14226830)


**What is this?** An end-to-end, **mission-phase-aware** ML pipeline for lithium-ion **prognostics in eVTOL duty cycles**.  
We engineer >50 phase/mission features from the CMU eVTOL dataset and train both tree ensembles and sequence models (LSTM/GRU/BiLSTM/TCN/TFT, plus **Attention-LSTM-MoE**). We enforce **physical consistency** via a **monotone-RUL** penalty and **post-hoc isotonic calibration** across **EOL thresholds (90/85/80%)**.

**Headline (draft)**: Attention-guided sequence models (TFT, Attn-LSTM-MoE) deliver **lowest MAE** and best calibration for RUL@{80,85,90} across cells; tree models struggle on sequence RUL despite doing fine on SOH.

---

## 1) Why eVTOL battery prognostics?

eVTOL missions demand **high power at takeoff/landing** with no rest during flight, stressing cells thermo-electrically. Mission-aware prognostics are required to plan maintenance, derate missions, and enforce safety margins across **multiple EOL thresholds** (early-warning at 90%, serviceability at 85%, end-of-service at 80%).  

**Data**: We use the **CMU eVTOL Battery Dataset** (22 Sony-Murata VTC6 cells; ~21k cycles) — a widely cited benchmark for eVTOL duty cycles.  
Dataset DOI: `10.1184/R1/14226830.v2`  •  Paper: Scientific Data 10:344 (2023)

---

## 2) Repository structure
.
├─ README.md
├─ LICENSE
├─ CITATION.cff                 # How to cite this repo (shown by GitHub) 
├─ pyproject.toml / requirements.txt
├─ Makefile                     # make data | make fe | make train | make eval | make figs
├─ configs/                     # YAML configs for experiments
│  ├─ train_rul.yaml
│  └─ train_soh.yaml
├─ src/evtol_prognosis/         # Installable package (import evtol_prognosis)
│  ├─ __init__.py
│  ├─ utils.py                  # formerly battery_common.py
│  ├─ features/
│  │  ├─ phase_labeling.py      # phase labeling logic
│  │  └─ feature_engineering.py # feature extraction (>50 features)
│  ├─ models/
│  │  ├─ attn_lstm.py
│  │  ├─ attn_lstm_moe.py
│  │  └─ baseline_trees.py      # LightGBM / CatBoost / XGBoost wrappers
│  ├─ training/
│  │  ├─ datamodule.py          # loaders, T_max, k-window
│  │  └─ train.py               # common training loop + LOCO CV
│  └─ evaluation/
│     ├─ metrics.py             # MAE, RMSE, calibration utils
│     └─ plots.py               # RUL@80/85/90, SOH heatmaps, ablations
├─ scripts/                     # CLI entry points (thin wrappers around src/)
│  ├─ download_cmu_evtol.py     # prints CC-BY-4.0 notice and fetches data
│  ├─ preprocess.py             # raw → interim (cleaning, fixes)
│  ├─ extract_features.py       # interim → processed features
│  ├─ train_baselines.py
│  ├─ train_attn_lstm_moe.py
│  └─ evaluate.py
├─ data/                     

File: per_cycle_summary_allcells.csv
cycleNumber,n_rows,duration_s,max_voltage,min_voltage,mean_voltage,max_temp,mean_temp,max_current,mean_current,std_current,max_power,mean_power,QDischarge_mAh,QCharge_mAh,energy_Wh,Ns_mode,cell_id,is_capacity_test,score,dis_dur_s,frac_flight,anomaly_score,any_anomaly,initial_capacity_mAh,SOH_pct,SOH_pct_smoothed,RUL_cycles,RUL_censored,cell
0,91196,6.07721e+06,4.20013,2.49999,3.67009,61.1571,23.7625,2992.85,-651.932,1241.11,12.5567,-2.34953,3089.34,3027.44,13048.8,5,VAH01,True,3,86485.2,0.422003,1,True,3089.34,100.0,100.0,249,True,VAH01
144,2593,3.79624e+06,4.20005,2.73069,3.74786,58.8957,31.8105,2995.01,-2749.32,4812.58,12.5584,-9.61495,1836.76,1811.75,11576.4,5,VAH01,False,1,3029.99,0.457771,1,True,3089.34,93.643,93.643,105,True,VAH01
38,4669,3.96912e+06,4.19998,2.60764,3.66346,63.4483,31.7496,2993.01,-3154.02,4692.17,12.5636,-11.0447,2108.35,2122.75,11797.5,5,VAH02,False,1,3629.99,0.532876,1,True,3104.82,92.988,92.988,211,True,VAH02
182,2556,2.00154e+06,4.19998,2.70377,3.66923,58.763,31.9992,2992.42,-2988.94,4681.26,12.5623,-10.4388,2073.66,2059.08,5945.01,5,VAH02,False,1,2420,0.510563,1,True,3104.82,92.988,92.988,67,True,VAH02
76,1532,7.45798e+06,4.20015,2.92995,3.95237,48.7954,28.6892,3007.19,-1367.33,4194.16,12.6214,-4.59479,1609.83,1632.99,23371.6,1,VAH05,False,2,5049.99,0.332898,1,True,3033.22,94.1449,94.1449,423,True,VAH05
220,1593,7.82518e+06,4.20015,2.87744,3.95172,50.8396,28.5648,3007.59,-1326.92,4165.5,12.6278,-4.39984,1627.15,1655.47,24452.3,1,VAH05,False,2,5049.99,0.320151,1,True,3033.22,94.1449,94.1449,279,True,VAH05
364,360,8649.25,4.20007,2.78396,3.93913,53.973,28.6523,3007.59,-1224.72,4186.8,12.6266,-3.7811,1655.7,1672.1,0.642557,1,VAH05,False,1,1009.94,0.283333,2,True,3033.22,94.1449,94.1449,135,True,VAH05
8,1737,6.96657e+06,4.20074,2.78025,3.8558,57.7741,29.7671,1507.65,-1091.06,3971.73,6.32342,-3.61774,1827.07,1864.09,10558.2,0,VAH06,False,1,4039.99,0.234888,1,True,3039.96,93.8756,93.8756,241,True,VAH06
152,1769,7.25498e+06,4.20066,2.71486,3.84528,62.1735,30.0195,1507.65,-1085.92,3995.7,6.32219,-3.54175,1849.72,1847.49,10961.3,0,VAH06,False,1,4039.99,0.230639,1,True,3039.96,93.8756,93.8756,97,True,VAH06
46,279,6259.82,4.00057,2.66129,3.66286,54.4761,31.2088,3005.66,-1782.72,5178.73,12.0143,-5.66237,1848.31,1859.1,0.271138,5,VAH07,False,1,1010,0.365591,1,True,3033.79,94.8705,94.8705,203,True,VAH07
190,282,6345.39,4.00057,2.58983,3.65188,56.5289,31.1546,3005.27,-1773.36,5218.48,12.0141,-5.56124,1863.26,1874.63,0.321181,5,VAH07,False,1,1010,0.361702,1,True,3033.79,94.8705,94.8705,59,True,VAH07
84,1555,5.43684e+06,4.2008,2.65182,3.91759,59.6632,27.0056,3005.95,-1543.23,4786.89,12.6197,-4.99172,1857.57,1872.76,16648.5,1,VAH09,False,1,5049.99,0.327974,1,True,2939.75,93.0215,93.0215,165,True,VAH09
228,321,7476.48,4.20072,2.83312,3.91585,51.3499,27.105,3005.95,-1498.99,4757.54,12.6146,-4.80365,1800.67,1814.86,0.512437,1,VAH09,False,1,1010,0.317757,2,True,2939.75,93.0215,93.0215,21,True,VAH09
122,1628,9.41207e+06,4.20074,2.75885,3.90298,66.9761,37.0126,3009.3,-1464.76,4637.22,12.6354,-4.80273,1848.6,1861.81,28743.4,1,VAH10,False,1,5049.99,0.313268,1,True,2992.6,94.7564,94.7564,285,True,VAH10
266,733,3.88871e+06,4.20067,2.72059,3.88686,69.5772,37.634,3007.33,-1348.55,4591.69,12.6195,-4.19811,1865.72,1873.9,11790,1,VAH10,False,1,2019.88,0.278308,1,True,2992.6,94.7564,94.7564,141,True,VAH10
2,98894,1.50672e+07,4.200624,2.50001,3.67321,40.7563,22.1894,3005.73,-577.09,633.955,12.6199,-2.09544,2981.83,1555.78,37745.7,5,VAH11,True,3,102005,0.448905,1,True,3049.51,97.7807,100.0,497,True,VAH11
146,1786,1.4199e+07,4.20058,2.76278,3.97722,42.88607,25.7523,3006.52,-1251.4,3781.99,12.6222,-4.20946,1482.44,1489.33,44946.3,1,VAH11,False,1,6059.99,0.342665,1,True,3049.51,94.9225,94.9225,353,True,VAH11
290,1000,8.95347e+06,4.20051,2.66906,3.96907,45.4023,25.2254,3007.11,-1154.12,3755.91,12.6158,-3.67689,1494,1507.74,28129.1,1,VAH11,False,1,3029.82,0.306,1,True,3049.51,94.9225,94.9225,209,True,VAH11
434,657,4.16281e+06,4.20051,2.95775,3.97385,39.7546,25.6155,3005.73,-1153.21,3710.94,12.6213,-3.74671,1438.93,1453.79,13122.6,1,VAH11,False,1,2019.88,0.310502,1,True,3049.51,94.9225,94.9225,65,True,VAH11
78,1488,1.22541e+07,4.20083,2.94383,3.99215,55.2551,28.9161,3005.22,-1425.4,4876.9,12.6167,-4.65972,1330.41,1333.86,39445.5,1,VAH12,False,1,3659.99,0.25,1,True,3060.8,94.6814,94.6814,421,True,VAH12
222,1527,1.25099e+07,4.20079,2.92764,3.98971,56.1857,29.2835,3005.81,-1396.71,4844.64,12.6183,-4.53364,1334.23,1333.31,40261.8,1,VAH12,False,1,3659.99,0.243615,1,True,3060.8,94.6814,94.6814,277,True,VAH12
366,810,7.38931e+06,4.20075,2.87769,3.98061,57.7076,28.7273,3005.22,-1364.31,4900.24,12.6213,-4.21353,1350.83,1344.56,23671.9,1,VAH12,False,1,1829.82,0.22963,1,True,3060.8,94.6814,94.6814,133,True,VAH12
10,1373,5.40623e+06,4.20081,2.91651,3.95222,51.8397,29.38,3006.332,-1498.86,4786.79,12.6233,-4.96692,1558.65,1568.93,17033.8,1,VAH13,False,1,4049.99,0.298616,1,True,3045.31,94.1502,94.1502,239,True,VAH13
154,1111,5.70088e+06,4.20077,2.78018,3.94564,55.362,29.4898,3006.135,-1496.02,4817.65,12.6183,-4.8955,1599.17,1614.9,17887.6,1,VAH13,False,1,3239.99,0.29523,1,True,3045.31,94.1502,94.1502,95,True,VAH13
48,636,1.90246e+06,4.19994,2.75685,3.8777,53.809,29.2805,2991.63,-1696.94,4797.15,12.5589,-5.62912,2054.63,2041.83,5660.87,5,VAH15,False,1,2420,0.383648,1,True,3124.82,92.7506,92.7506,201,True,VAH15
192,669,2.01389e+06,4.1999,2.68931,3.86387,57.799,30.0729,2992.02,-1632.55,4781.81,12.5612,-5.30498,2080.11,2063.02,5979.72,5,VAH15,False,1,2420,0.364723,1,True,3124.82,92.7506,92.7506,57,True,VAH15
86,550,1.66262e+06,4.199862,2.91469,3.9169,49.6441,30.4706,4490.63,-1721.81,4982.9,18.8507,-5.75419,1779.06,1764.38,7750.84,5,VAH16,False,1,2020,0.370909,1,True,3138.38,93.2546,93.2546,163,True,VAH16
230,572,1.788e+06,4.19994,2.79697,3.89695,54.8029,31.3706,4490.82,-1685.64,5006.02,18.8529,-5.49315,1815.04,1781.13,8283.26,1,VAH16,False,1,2020,0.356643,1,True,3138.38,93.2546,93.2546,19,True,VAH16
124,895,3.68345e+06,4.199892,2.82418,3.90957,54.1593,30.1119,2991.07,-1600.17,4806.77,12.5538,-5.27392,1809.34,1800.87,11235.5,1,VAH17,False,1,3029.99,0.341899,1,True,3111.98,93.534,93.534,356,True,VAH17
268,332,7854.85,4.19985,2.76275,3.89394,57.2668,30.7777,2989.1,-1485.38,4778.37,12.5463,-4.67253,1831.85,1830.71,0.541138,1,VAH17,False,1,1009.94,0.307229,2,True,3111.98,93.534,93.534,212,True,VAH17
412,337,7962.08,4.19997,2.66571,3.88281,61.5525,31.248,2989.89,-1483.96,4844.32,12.545,-4.56342,1859.09,1839.82,0.575384,1,VAH17,False,1,1009.94,0.302671,2,True,3111.98,93.534,93.534,68,True,VAH17
75,583,3.5238e+06,4.19994,2.65172,3.90044,63.6936,31.4293,4490.626,-1651.4,5007.24,18.8534,-5.34452,1851.9,1835.22,16275.5,1,VAH20,False,2,2020,0.349914,1,True,3040.79,94.2381,94.2381,424,True,VAH20
219,275,6126.04,4.19998,2.99602,3.91229,48.7817,31.0751,4490.23,-1727.35,4984.74,18.8531,-5.77531,1755.24,1741.77,0.184256,5,VAH20,False,1,1010,0.370909,1,True,3040.79,94.2381,94.2381,280,True,VAH20
363,292,6629.95,4.19978,2.914891,3.90629,52.1373,31.431,4490.43,-1638.26,4953.84,18.8472,-5.34524,1780.99,1765.05,0.278408,1,VAH20,False,1,1009.94,0.349315,1,True,3040.79,94.2381,94.2381,136,True,VAH20
7,17128,3.93342e+06,4.20002,2.50013,3.67605,59.9244,24.214,2991.43,-622.654,981.3,12.5575,-2.25232,2729.89,2086.87,7723.44,5,VAH22,False,2,18601.8,0.438288,1,True,3023.88,94.0129,94.0129,492,True,VAH22
151,314,6879.41,4.1999,2.92438,3.88481,47.2195,28.8879,2990.45,-1697.92,4776.65,12.5563,-5.68197,2010.98,1999.17,0.288874,5,VAH22,False,1,1210,0.388535,1,True,3023.88,94.0129,94.0129,348,True,VAH22
295,327,7306.11,4.199861,2.75555,3.86463,53.3902,29.2636,2991.23,-1676.51,4835.94,12.552,-5.44494,2053.76,2034.45,0.409172,5,VAH22,False,1,1209.94,0.373089,1,True,3023.88,94.0129,94.0129,204,True,VAH22
439,350,7975.63,4.199861,2.6812,3.86481,57.8069,29.7864,2990.84,-1581.95,4788.13,12.5553,-5.02612,2082.13,2067.48,0.536653,5,VAH22,False,1,1209.94,0.348571,1,True,3023.88,94.0129,94.0129,60,True,VAH22
83,1127,3.99451e+06,4.1009,2.63082,3.79168,57.9777,28.5731,3008.01,-1296.2,4451.62,12.3279,-4.17001,1842.78,1840.04,11899.7,1,VAH23,False,1,3029.99,0.271517,1,True,2947,95.6005,95.6005,166,True,VAH23
227,755,1.99529e+06,4.10082,2.70102,3.78237,54.90984,29.4048,3008.01,-1291.86,4428.25,12.328,-4.17047,1823.46,1835.15,5940.77,1,VAH23,False,1,2020,0.270199,1,True,2947,95.6005,95.6005,22,True,VAH23
121,1237,4.59292e+06,4.2007,2.76375,3.87281,57.2065,28.4008,1506.66,-1155.36,4105.5,6.31887,-3.79204,1821.49,1835.41,6941.76,0,VAH24,False,1,3029.99,0.247373,1,True,2960.03,95.0818,95.0818,128,True,VAH24
15,906,3.40461e+06,4.20072,2.75565,3.92307,53.9291,26.8336,3005.36,-1569.06,4781.59,12.6181,-5.15854,1825.4,1840.93,10455.1,1,VAH25,False,1,3029.99,0.337748,1,True,2933.13,96.1453,96.1453,234,True,VAH25
159,608,1.51864e+06,4.20072,2.86334,3.92346,49.1651,26.7278,3005.16,-1559.94,4765.15,12.6164,-5.12696,1793.39,1807.87,4654.77,1,VAH25,False,1,2020,0.335526,1,True,2933.13,96.1453,96.1453,90,True,VAH25
53,1663,6.99947e+06,4.20077,2.70247,3.95808,56.1386,27.3645,3005.938,-1508.13,4863.46,12.6189,-4.8823,1609.87,1620.65,21994.6,1,VAH26,False,1,4859.99,0.295851,1,True,3052.76,93.9952,93.9952,196,True,VAH26
197,804,3.39201e+06,4.20089,2.94432,3.96104,48.1919,28.0372,3005.35,-1534.37,4845.08,12.6206,-5.07885,1543.09,1549.26,10688.2,1,VAH26,False,1,2429.99,0.30597,1,True,3052.76,93.9952,93.9952,52,True,VAH26
91,580,1.7594e+06,4.199892,2.88428,3.92154,51.4709,29.5808,2990.48,-1629.53,4814.09,12.5547,-5.44043,1784.23,1772.5,5375.98,5,VAH27,False,1,2020,0.351724,1,True,3120.68,93.246,93.246,158,True,VAH27
235,611,1.90164e+06,4.20001,2.75211,3.9153,57.3063,29.2941,2990.09,-1579.74,4827.8,12.5537,-5.12117,1825.83,1814,5758.8,1,VAH27,False,1,2020,0.333879,1,True,3120.68,93.246,93.246,14,True,VAH27
129,1513,6.75048e+06,4.19999,2.90749,3.95718,44.2808,26.2714,3005.22,-1396.72,4269.43,12.6152,-4.62487,1611.73,1637.06,21092.2,1,VAH28,False,1,5049.99,0.337079,1,True,3020.38,94.1512,94.1512,120,True,VAH28
23,1868,6.08376e+06,4.19998,2.87204,3.89833,64.989,41.1613,2996.16,-1514.3,4650.52,12.5743,-5.07569,1807.27,1799.68,18509.1,5,VAH30,False,1,6059.99,0.327623,1,True,3138.3,92.5799,92.5799,226,True,VAH30
167,281,6316.56,4.1999,3.13786,3.91237,54.0697,40.5387,2994.58,-1643.28,4744.04,12.5644,-5.68907,1719.31,1714.85,0.0770212,5,VAH30,False,1,1010,0.362989,1,True,3138.3,92.5799,92.5799,82,True,VAH30
249,289,6548.29,4.19982,3.09387,3.90777,55.5156,40.6969,2994.78,-1606.41,4727.44,12.5709,-5.50229,1731.5,1727.2,0.121884,5,VAH30,False,1,1010,0.352941,1,True,3138.3,92.5799,92.5799,0,True,VAH30